{
  "Patient": {
    "id": "psn-pid.123",
    "meta": {
      "source": "#p21"
    },
    "gender": "female",
    "address": [
      {
        "city": "Erlangen",
        "type": "physical",
        "postalCode": "91052"
      }
    ],
    "birthDate": "1950-01-01",
    "identifier": [
      {
        "use": "usual",
        "type": {
          "coding": [
            {
              "code": "MR",
              "system": "http://terminology.hl7.org/CodeSystem/v2-0203"
            }
          ]
        },
        "value": "psn-pid.123",
        "system": "https://fhir.diz.uk-erlangen.de/NamingSystem/patientId"
      }
    ],
    "resourceType": "Patient"
  },
  "Encounter": {
    "id": "psn-eid.123",
    "meta": {
      "source": "#p21"
    },
    "class": {
      "code": "IMP",
      "system": "http://terminology.hl7.org/CodeSystem/v3-ActCode",
      "display": "inpatient encounter"
    },
    "period": {
      "end": "2020-01-01T01:01:00+00:00",
      "start": "2020-02-01T01:01:00+00:00"
    },
    "status": "finished",
    "subject": {
      "reference": "Patient/psn-pid.123"
    },
    "diagnosis": [
      {
        "use": {
          "coding": [
            {
              "code": "billing",
              "system": "http://terminology.hl7.org/CodeSystem/diagnosis-role"
            }
          ]
        },
        "rank": 1,
        "condition": {
          "reference": "Condition/id-123"
        }
      }
    ],
    "extension": [
      {
        "url": "https://fhir.miracum.org/core/StructureDefinition/aufnahmegrund",
        "extension": [
          {
            "url": "aufnahmegrundPrefix",
            "valueCoding": {
              "code": "03",
              "system": "https://fhir.miracum.org/core/CodeSystem/aufnahmegrundPrefix",
              "display": "Krankenhausbehandlung, teilstationär"
            }
          },
          {
            "url": "aufnahmegrundDritteStelle",
            "valueCoding": {
              "code": "0",
              "system": "https://fhir.miracum.org/core/CodeSystem/aufnahmegrundDritteStelle",
              "display": "Anderes"
            }
          },
          {
            "url": "aufnahmegrundVierteStelle",
            "valueCoding": {
              "code": "1",
              "system": "https://fhir.miracum.org/core/CodeSystem/aufnahmegrundVierteStelle",
              "display": "Normalfall"
            }
          }
        ]
      },
      {
        "url": "https://fhir.miracum.org/core/StructureDefinition/arbeitsfaehigkeit-bei-entlassung",
        "valueCoding": {
          "code": "9",
          "system": "https://fhir.miracum.org/core/CodeSystem/entlassgrundDritteStelle",
          "display": "keine Angabe"
        }
      }
    ],
    "identifier": [
      {
        "use": "usual",
        "type": {
          "coding": [
            {
              "code": "VN",
              "system": "http://terminology.hl7.org/CodeSystem/v2-0203"
            }
          ]
        },
        "value": "psn-eid.123",
        "system": "https://fhir.diz.uk-erlangen.de/NamingSystem/encounterId"
      }
    ],
    "reasonCode": [
      {
        "coding": [
          {
            "code": "E",
            "system": "https://www.medizininformatik-initiative.de/fhir/core/CodeSystem/Aufnahmeanlass",
            "display": "Einweisung durch einen Arzt"
          },
          {
            "code": "E",
            "system": "https://fhir.miracum.org/core/CodeSystem/aufnahmeanlass",
            "display": "Einweisung durch einen Arzt"
          }
        ]
      },
      {
        "coding": [
          {
            "code": "03",
            "system": "https://fhir.miracum.org/core/CodeSystem/aufnahmegrundPrefix",
            "display": "Krankenhausbehandlung, teilstationär"
          },
          {
            "code": "03",
            "system": "https://www.medizininformatik-initiative.de/fhir/core/CodeSystem/Aufnahmegrund",
            "display": "Krankenhausbehandlung, teilstationär"
          }
        ]
      }
    ],
    "resourceType": "Encounter",
    "hospitalization": {
      "extension": [
        {
          "url": "https://www.medizininformatik-initiative.de/fhir/core/StructureDefinition/Entlassungsgrund",
          "valueCodeableConcept": {
            "coding": [
              {
                "code": "01",
                "system": "https://fhir.miracum.org/core/CodeSystem/entlassgrundPrefix",
                "display": "Behandlung regulär beendet",
                "version": "0.3.0"
              },
              {
                "code": "01",
                "system": "https://www.medizininformatik-initiative.de/fhir/core/CodeSystem/Entlassungsgrund",
                "display": "Behandlung regulär beendet",
                "version": "0.9"
              },
              {
                "code": "home",
                "system": "http://terminology.hl7.org/CodeSystem/discharge-disposition",
                "display": "Home"
              }
            ]
          }
        }
      ],
      "admitSource": {
        "coding": [
          {
            "code": "E",
            "system": "https://www.medizininformatik-initiative.de/fhir/core/CodeSystem/Aufnahmeanlass",
            "display": "Einweisung durch einen Arzt"
          },
          {
            "code": "E",
            "system": "https://fhir.miracum.org/core/CodeSystem/aufnahmeanlass",
            "display": "Einweisung durch einen Arzt"
          }
        ]
      },
      "dischargeDisposition": {
        "coding": [
          {
            "code": "01",
            "system": "https://fhir.miracum.org/core/CodeSystem/entlassgrundPrefix",
            "display": "Behandlung regulär beendet",
            "version": "0.3.0"
          },
          {
            "code": "01",
            "system": "https://www.medizininformatik-initiative.de/fhir/core/CodeSystem/Entlassungsgrund",
            "display": "Behandlung regulär beendet",
            "version": "0.9"
          },
          {
            "code": "home",
            "system": "http://terminology.hl7.org/CodeSystem/discharge-disposition",
            "display": "Home"
          }
        ]
      }
    }
  },
  "Procedure": {
    "id": "id-123",
    "code": {
      "coding": [
        {
          "code": "8-83b.c5",
          "system": "http://fhir.de/CodeSystem/dimdi/ops",
          "version": "2018"
        }
      ]
    },
    "meta": {
      "source": "#p21",
      "security": [
        {
          "code": "PSEUDED",
          "system": "http://terminology.hl7.org/CodeSystem/v3-ObservationValue",
          "display": "part of the resource is pseudonymized"
        }
      ]
    },
    "status": "completed",
    "subject": {
      "reference": "Patient/psn-pid.123"
    },
    "encounter": {
      "reference": "Encounter/psn-eid.123"
    },
    "identifier": [
      {
        "value": "id-123",
        "system": "https://miracum.org/fhir/NamingSystem/identifier/P21SurrogateProcedureId"
      }
    ],
    "resourceType": "Procedure",
    "performedDateTime": "2020-02-01T01:01:00+00:00"
  },
  "Condition": {
    "id": "id-123",
    "code": {
      "coding": [
        {
          "code": "H90.3",
          "system": "http://fhir.de/CodeSystem/dimdi/icd-10-gm",
          "version": "2018"
        }
      ]
    },
    "meta": {
      "source": "#p21"
    },
    "subject": {
      "reference": "Patient/psn-pid.123"
    },
    "encounter": {
      "reference": "Encounter/psn-eid.123"
    },
    "identifier": [
      {
        "value": "id-123",
        "system": "https://miracum.org/fhir/NamingSystem/identifier/P21SurrogateConditionId"
      }
    ],
    "recordedDate": "2019-23-04T09:03:00+00:00",
    "resourceType": "Condition"
  },
  "Observation": {
    "id": "id-123",
    "code": {
      "coding": [
        {
          "code": "718-7",
          "system": "http://loinc.org"
        }
      ]
    },
    "meta": {
      "source": "#laboratory"
    },
    "method": {
      "coding": [
        {
          "system": "http://methodConcept",
          "display": "SLS Methode"
        }
      ]
    },
    "status": "final",
    "subject": {
      "reference": "Patient/psn-pid.123"
    },
    "category": [
      {
        "coding": [
          {
            "code": "laboratory",
            "system": "http://terminology.hl7.org/CodeSystem/observation-category",
            "display": "Laboratory"
          }
        ]
      }
    ],
    "encounter": {
      "reference": "Encounter/psn-eid.123"
    },
    "identifier": [
      {
        "value": "id-123"
      }
    ],
    "resourceType": "Observation",
    "valueQuantity": {
      "code": "g/dL",
      "unit": "g/dL",
      "value": 9.12123,
      "system": "http://unitsofmeasure.org"
    },
    "interpretation": [
      {
        "coding": [
          {
            "code": "L",
            "system": "http://terminology.hl7.org/CodeSystem/v3-ObservationInterpretation",
            "display": "Low"
          }
        ]
      }
    ],
    "referenceRange": [
      {
        "low": {
          "code": "g/dL",
          "unit": "g/dL",
          "value": 12,
          "system": "http://unitsofmeasure.org"
        },
        "high": {
          "code": "g/dL",
          "unit": "g/dL",
          "value": 15,
          "system": "http://unitsofmeasure.org"
        }
      }
    ],
    "effectiveDateTime": "2019-12-11T07:02:00+00:00"
  }
}